{
    "resourceType": {
        "value": "GuidanceResponse", 
        "type": "Text"
    }, 
    "type": "GuidanceResponse", 
    "meta": [
        {
            "value": {
                "tag": [
                    {
                        "system": "http://terminology.hl7.org/CodeSystem/v3-ActReason", 
                        "code": "HTEST", 
                        "display": "test health data"
                    }
                ]
            }, 
            "type": "StructuredValue"
        }
    ], 
    "implicitRules": {
        "value": "String of characters used to identify a name or a resource", 
        "type": "Text"
    }, 
    "_implicitRules": [
        {
            "value": {
                "id": "85a1e56e-7d09-454f-a590-0e0cb0d377e0", 
                "extension": [
                    "urn:ngsi-ld:Extension:001"
                ]
            }, 
            "type": "StructuredValue"
        }
    ], 
    "language": {
        "value": "EN-US", 
        "type": "Text"
    }, 
    "_language": [
        {
            "value": {
                "id": "85a1e56e-7d09-454f-a590-0e0cb0d377e0", 
                "extension": [
                    "urn:ngsi-ld:Extension:001"
                ]
            }, 
            "type": "StructuredValue"
        }
    ], 
    "text": [
        {
            "value": {
                "status": "generated", 
                "div": "<div xmlns=\"http://www.w3.org/1999/xhtml\"><p><b>Generated Narrative</b></p><div style=\"display: inline-block; background-color: #d9e0e7; padding: 6px; margin: 4px; border: 1px solid #8da1b4; border-radius: 5px; line-height: 60%\"><p style=\"margin-bottom: 0px\">Resource &quot;example&quot; </p></div><p><b>requestIdentifier</b>: id: guidanceRequest1</p><p><b>identifier</b>: id: guidanceResponse1</p><p><b>module</b>: <a href=\"http://someguidelineprovider.org/radiology-appropriateness-guidelines.html\">http://someguidelineprovider.org/radiology-appropriateness-guidelines.html</a></p><p><b>status</b>: success</p><p><b>subject</b>: <a href=\"patient-example.html\">Patient/example</a> &quot;Peter CHALMERS&quot;</p><p><b>encounter</b>: <a href=\"encounter-example.html\">Encounter/example</a></p><p><b>occurrenceDateTime</b>: 2017-03-10T16:02:00Z</p><p><b>performer</b>: <a href=\"todo.html\">Device/software</a></p><p><b>reasonCode</b>: Guideline Appropriate Ordering Assessment <span style=\"background: LightGoldenRodYellow; margin: 4px; border: 1px solid khaki\"> ()</span></p><p><b>outputParameters</b>: <a name=\"outputParameters1\"> </a></p><blockquote><div style=\"display: inline-block; background-color: #d9e0e7; padding: 6px; margin: 4px; border: 1px solid #8da1b4; border-radius: 5px; line-height: 60%\"><p style=\"margin-bottom: 0px\">Resource &quot;outputParameters1&quot; </p></div><blockquote><p><b>parameter</b></p><p><b>name</b>: score</p><p><b>value</b>: 7</p></blockquote><blockquote><p><b>parameter</b></p><p><b>name</b>: item-assessed</p><p><b>value</b>: CT, head, wo iv contrast <span style=\"background: LightGoldenRodYellow; margin: 4px; border: 1px solid khaki\"> (<a href=\"http://terminology.hl7.org/3.1.0/CodeSystem-CPT.html\">Current Procedural Terminology (CPT\u00ae)</a>#70450)</span></p></blockquote><blockquote><p><b>parameter</b></p><p><b>name</b>: device</p><p><b>value</b>: <a href=\"todo.html\">Device/software</a></p></blockquote><blockquote><p><b>parameter</b></p><p><b>name</b>: guideline-followed</p><p><b>value</b>: <a href=\"http://someguidelineprovider.org/radiology-appropriateness-guidelines.html\">http://someguidelineprovider.org/radiology-appropriateness-guidelines.html</a></p></blockquote></blockquote></div>"
            }, 
            "type": "StructuredValue"
        }
    ], 
    "contained": [
        {
            "value": [
                {
                    "resourceType": "Parameters", 
                    "id": "outputParameters1", 
                    "parameter": [
                        {
                            "name": "score", 
                            "valueDecimal": 7
                        }, 
                        {
                            "name": "item-assessed", 
                            "valueCodeableConcept": {
                                "coding": [
                                    {
                                        "system": "http://www.ama-assn.org/go/cpt", 
                                        "code": "70450", 
                                        "display": "CT, head, wo iv contrast"
                                    }
                                ]
                            }
                        }, 
                        {
                            "name": "device", 
                            "valueReference": {
                                "reference": "Device/software"
                            }
                        }, 
                        {
                            "name": "guideline-followed", 
                            "valueUri": "http://someguidelineprovider.org/radiology-appropriateness-guidelines.html"
                        }
                    ]
                }
            ], 
            "type": "StructuredValue"
        }
    ], 
    "extension": [
        {
            "value": [
                "urn:ngsi-ld:Extension:001"
            ], 
            "type": "StructuredValue"
        }
    ], 
    "modifierExtension": [
        {
            "value": [
                "urn:ngsi-ld:Extension:modifier001"
            ], 
            "type": "StructuredValue"
        }
    ], 
    "requestIdentifier": [
        {
            "value": {
                "system": "http://example.org", 
                "value": "guidanceRequest1"
            }, 
            "type": "StructuredValue"
        }
    ], 
    "identifier": [
        {
            "value": [
                {
                    "system": "http://example.org", 
                    "value": "guidanceResponse1"
                }
            ], 
            "type": "StructuredValue"
        }
    ], 
    "moduleUri": {
        "value": "http://someguidelineprovider.org/radiology-appropriateness-guidelines.html", 
        "type": "Text"
    }, 
    "_moduleUri": [
        {
            "value": {
                "id": "85a1e56e-7d09-454f-a590-0e0cb0d377e0", 
                "extension": [
                    "urn:ngsi-ld:Extension:001"
                ]
            }, 
            "type": "StructuredValue"
        }
    ], 
    "moduleCanonical": {
        "value": "An identifier, CodeableConcept or canonical reference to the guidance that was requested.", 
        "type": "Text"
    }, 
    "_moduleCanonical": [
        {
            "value": {
                "id": "85a1e56e-7d09-454f-a590-0e0cb0d377e0", 
                "extension": [
                    "urn:ngsi-ld:Extension:001"
                ]
            }, 
            "type": "StructuredValue"
        }
    ], 
    "moduleCodeableConcept": [
        {
            "value": {
                "id": "85a1e56e-7d09-454f-a590-0e0cb0d377e0", 
                "extension": [
                    "urn:ngsi-ld:Extension:001"
                ], 
                "coding": [
                    {
                        "id": "85a1e56e-7d09-454f-a590-0e0cb0d377e0", 
                        "extension": [
                            {}
                        ], 
                        "system": "The identification of the code system that defines the meaning of the symbol in the code.", 
                        "_system": {
                            "id": "85a1e56e-7d09-454f-a590-0e0cb0d377e0", 
                            "extension": [
                                {}
                            ]
                        }, 
                        "version": "However this cannot consistently be assured, and when the meaning is not guaranteed to be consistent, the version SHOULD be exchanged.", 
                        "_version": {
                            "id": "85a1e56e-7d09-454f-a590-0e0cb0d377e0", 
                            "extension": [
                                {}
                            ]
                        }, 
                        "code": "post-coordination).", 
                        "_code": {
                            "id": "85a1e56e-7d09-454f-a590-0e0cb0d377e0", 
                            "extension": [
                                {}
                            ]
                        }, 
                        "display": "A representation of the meaning of the code in the system, following the rules of the system.", 
                        "_display": {
                            "id": "85a1e56e-7d09-454f-a590-0e0cb0d377e0", 
                            "extension": [
                                {}
                            ]
                        }, 
                        "userSelected": false, 
                        "_userSelected": {
                            "id": "85a1e56e-7d09-454f-a590-0e0cb0d377e0", 
                            "extension": [
                                {}
                            ]
                        }
                    }
                ], 
                "text": "A human language representation of the concept as seen/selected/uttered by the user who entered the data and/or which represents the intended meaning of the user.", 
                "_text": {
                    "id": "85a1e56e-7d09-454f-a590-0e0cb0d377e0", 
                    "extension": [
                        {}
                    ]
                }
            }, 
            "type": "StructuredValue"
        }
    ], 
    "status": {
        "value": "success", 
        "type": "Text"
    }, 
    "_status": [
        {
            "value": {
                "id": "85a1e56e-7d09-454f-a590-0e0cb0d377e0", 
                "extension": [
                    "urn:ngsi-ld:Extension:001"
                ]
            }, 
            "type": "StructuredValue"
        }
    ], 
    "subject": [
        {
            "value": {
                "reference": "Patient/example"
            }, 
            "type": "StructuredValue"
        }
    ], 
    "encounter": [
        {
            "value": {
                "reference": "Encounter/example"
            }, 
            "type": "StructuredValue"
        }
    ], 
    "occurrenceDateTime": {
        "value": "2017-03-10T16:02:00Z", 
        "type": "Text"
    }, 
    "_occurrenceDateTime": [
        {
            "value": {
                "id": "85a1e56e-7d09-454f-a590-0e0cb0d377e0", 
                "extension": [
                    "urn:ngsi-ld:Extension:001"
                ]
            }, 
            "type": "StructuredValue"
        }
    ], 
    "performer": [
        {
            "value": {
                "reference": "Device/software"
            }, 
            "type": "StructuredValue"
        }
    ], 
    "reasonCode": [
        {
            "value": [
                {
                    "text": "Guideline Appropriate Ordering Assessment"
                }
            ], 
            "type": "StructuredValue"
        }
    ], 
    "reasonReference": [
        {
            "value": [
                {
                    "id": "85a1e56e-7d09-454f-a590-0e0cb0d377e0", 
                    "extension": [
                        "urn:ngsi-ld:Extension:001"
                    ], 
                    "reference": "Internal fragment references (start with '#') refer to contained resources.", 
                    "_reference": {
                        "id": "85a1e56e-7d09-454f-a590-0e0cb0d377e0", 
                        "extension": [
                            {}
                        ]
                    }, 
                    "type": "Absolute URLs are only allowed for logical models (and can only be used in references in logical models, not resources).", 
                    "_type": {
                        "id": "85a1e56e-7d09-454f-a590-0e0cb0d377e0", 
                        "extension": [
                            {}
                        ]
                    }, 
                    "identifier": {
                        "id": "85a1e56e-7d09-454f-a590-0e0cb0d377e0", 
                        "extension": [
                            {}
                        ], 
                        "_use": {
                            "id": "85a1e56e-7d09-454f-a590-0e0cb0d377e0", 
                            "extension": [
                                {}
                            ]
                        }, 
                        "type": {
                            "id": "85a1e56e-7d09-454f-a590-0e0cb0d377e0", 
                            "extension": [
                                {}
                            ], 
                            "text": "A human language representation of the concept as seen/selected/uttered by the user who entered the data and/or which represents the intended meaning of the user."
                        }, 
                        "system": "Establishes the namespace for the value - that is, a URL that describes a set values that are unique.", 
                        "_system": {
                            "id": "85a1e56e-7d09-454f-a590-0e0cb0d377e0", 
                            "extension": [
                                {}
                            ]
                        }, 
                        "value": "The portion of the identifier typically relevant to the user and which is unique within the context of the system.", 
                        "_value": {
                            "id": "85a1e56e-7d09-454f-a590-0e0cb0d377e0", 
                            "extension": [
                                {}
                            ]
                        }, 
                        "period": {
                            "id": "85a1e56e-7d09-454f-a590-0e0cb0d377e0", 
                            "extension": [
                                {}
                            ], 
                            "start": "The boundary is inclusive.", 
                            "end": "The start may be in the past, and the end date in the future, which means that period is expected/planned to end at that time."
                        }, 
                        "assigner": {
                            "id": "85a1e56e-7d09-454f-a590-0e0cb0d377e0", 
                            "extension": [
                                {}
                            ], 
                            "reference": "Internal fragment references (start with '#') refer to contained resources.", 
                            "type": "Absolute URLs are only allowed for logical models (and can only be used in references in logical models, not resources).", 
                            "display": "Plain text narrative that identifies the resource in addition to the resource reference."
                        }
                    }, 
                    "display": "Plain text narrative that identifies the resource in addition to the resource reference.", 
                    "_display": {
                        "id": "85a1e56e-7d09-454f-a590-0e0cb0d377e0", 
                        "extension": [
                            {}
                        ]
                    }
                }
            ], 
            "type": "StructuredValue"
        }
    ], 
    "note": [
        {
            "value": [
                {
                    "id": "85a1e56e-7d09-454f-a590-0e0cb0d377e0", 
                    "extension": [
                        "urn:ngsi-ld:Extension:001"
                    ], 
                    "authorReference": {
                        "id": "85a1e56e-7d09-454f-a590-0e0cb0d377e0", 
                        "extension": [
                            {}
                        ], 
                        "reference": "Internal fragment references (start with '#') refer to contained resources.", 
                        "_reference": {
                            "id": "85a1e56e-7d09-454f-a590-0e0cb0d377e0", 
                            "extension": [
                                {}
                            ]
                        }, 
                        "type": "Absolute URLs are only allowed for logical models (and can only be used in references in logical models, not resources).", 
                        "_type": {
                            "id": "85a1e56e-7d09-454f-a590-0e0cb0d377e0", 
                            "extension": [
                                {}
                            ]
                        }, 
                        "identifier": {
                            "id": "85a1e56e-7d09-454f-a590-0e0cb0d377e0", 
                            "extension": [
                                {}
                            ], 
                            "system": "Establishes the namespace for the value - that is, a URL that describes a set values that are unique.", 
                            "value": "The portion of the identifier typically relevant to the user and which is unique within the context of the system."
                        }, 
                        "display": "Plain text narrative that identifies the resource in addition to the resource reference.", 
                        "_display": {
                            "id": "85a1e56e-7d09-454f-a590-0e0cb0d377e0", 
                            "extension": [
                                {}
                            ]
                        }
                    }, 
                    "authorString": "The individual responsible for making the annotation.", 
                    "_authorString": {
                        "id": "85a1e56e-7d09-454f-a590-0e0cb0d377e0", 
                        "extension": [
                            {}
                        ]
                    }, 
                    "time": "14:59:59Z", 
                    "_time": {
                        "id": "85a1e56e-7d09-454f-a590-0e0cb0d377e0", 
                        "extension": [
                            {}
                        ]
                    }, 
                    "text": "The text of the annotation in markdown format.", 
                    "_text": {
                        "id": "85a1e56e-7d09-454f-a590-0e0cb0d377e0", 
                        "extension": [
                            {}
                        ]
                    }
                }
            ], 
            "type": "StructuredValue"
        }
    ], 
    "evaluationMessage": [
        {
            "value": [
                {
                    "id": "85a1e56e-7d09-454f-a590-0e0cb0d377e0", 
                    "extension": [
                        "urn:ngsi-ld:Extension:001"
                    ], 
                    "reference": "Internal fragment references (start with '#') refer to contained resources.", 
                    "_reference": {
                        "id": "85a1e56e-7d09-454f-a590-0e0cb0d377e0", 
                        "extension": [
                            {}
                        ]
                    }, 
                    "type": "Absolute URLs are only allowed for logical models (and can only be used in references in logical models, not resources).", 
                    "_type": {
                        "id": "85a1e56e-7d09-454f-a590-0e0cb0d377e0", 
                        "extension": [
                            {}
                        ]
                    }, 
                    "identifier": {
                        "id": "85a1e56e-7d09-454f-a590-0e0cb0d377e0", 
                        "extension": [
                            {}
                        ], 
                        "_use": {
                            "id": "85a1e56e-7d09-454f-a590-0e0cb0d377e0", 
                            "extension": [
                                {}
                            ]
                        }, 
                        "type": {
                            "id": "85a1e56e-7d09-454f-a590-0e0cb0d377e0", 
                            "extension": [
                                {}
                            ], 
                            "text": "A human language representation of the concept as seen/selected/uttered by the user who entered the data and/or which represents the intended meaning of the user."
                        }, 
                        "system": "Establishes the namespace for the value - that is, a URL that describes a set values that are unique.", 
                        "_system": {
                            "id": "85a1e56e-7d09-454f-a590-0e0cb0d377e0", 
                            "extension": [
                                {}
                            ]
                        }, 
                        "value": "The portion of the identifier typically relevant to the user and which is unique within the context of the system.", 
                        "_value": {
                            "id": "85a1e56e-7d09-454f-a590-0e0cb0d377e0", 
                            "extension": [
                                {}
                            ]
                        }, 
                        "period": {
                            "id": "85a1e56e-7d09-454f-a590-0e0cb0d377e0", 
                            "extension": [
                                {}
                            ], 
                            "start": "The boundary is inclusive.", 
                            "end": "The start may be in the past, and the end date in the future, which means that period is expected/planned to end at that time."
                        }, 
                        "assigner": {
                            "id": "85a1e56e-7d09-454f-a590-0e0cb0d377e0", 
                            "extension": [
                                {}
                            ], 
                            "reference": "Internal fragment references (start with '#') refer to contained resources.", 
                            "type": "Absolute URLs are only allowed for logical models (and can only be used in references in logical models, not resources).", 
                            "display": "Plain text narrative that identifies the resource in addition to the resource reference."
                        }
                    }, 
                    "display": "Plain text narrative that identifies the resource in addition to the resource reference.", 
                    "_display": {
                        "id": "85a1e56e-7d09-454f-a590-0e0cb0d377e0", 
                        "extension": [
                            {}
                        ]
                    }
                }
            ], 
            "type": "StructuredValue"
        }
    ], 
    "outputParameters": [
        {
            "value": {
                "reference": "#outputParameters1"
            }, 
            "type": "StructuredValue"
        }
    ], 
    "result": [
        {
            "value": {
                "id": "85a1e56e-7d09-454f-a590-0e0cb0d377e0", 
                "extension": [
                    "urn:ngsi-ld:Extension:001"
                ], 
                "reference": "Internal fragment references (start with '#') refer to contained resources.", 
                "_reference": {
                    "id": "85a1e56e-7d09-454f-a590-0e0cb0d377e0", 
                    "extension": [
                        {}
                    ]
                }, 
                "type": "Absolute URLs are only allowed for logical models (and can only be used in references in logical models, not resources).", 
                "_type": {
                    "id": "85a1e56e-7d09-454f-a590-0e0cb0d377e0", 
                    "extension": [
                        {}
                    ]
                }, 
                "identifier": {
                    "id": "85a1e56e-7d09-454f-a590-0e0cb0d377e0", 
                    "extension": [
                        {}
                    ], 
                    "_use": {
                        "id": "85a1e56e-7d09-454f-a590-0e0cb0d377e0", 
                        "extension": [
                            {}
                        ]
                    }, 
                    "type": {
                        "id": "85a1e56e-7d09-454f-a590-0e0cb0d377e0", 
                        "extension": [
                            {}
                        ], 
                        "text": "A human language representation of the concept as seen/selected/uttered by the user who entered the data and/or which represents the intended meaning of the user."
                    }, 
                    "system": "Establishes the namespace for the value - that is, a URL that describes a set values that are unique.", 
                    "_system": {
                        "id": "85a1e56e-7d09-454f-a590-0e0cb0d377e0", 
                        "extension": [
                            {}
                        ]
                    }, 
                    "value": "The portion of the identifier typically relevant to the user and which is unique within the context of the system.", 
                    "_value": {
                        "id": "85a1e56e-7d09-454f-a590-0e0cb0d377e0", 
                        "extension": [
                            {}
                        ]
                    }, 
                    "period": {
                        "id": "85a1e56e-7d09-454f-a590-0e0cb0d377e0", 
                        "extension": [
                            {}
                        ], 
                        "start": "The boundary is inclusive.", 
                        "end": "The start may be in the past, and the end date in the future, which means that period is expected/planned to end at that time."
                    }, 
                    "assigner": {
                        "id": "85a1e56e-7d09-454f-a590-0e0cb0d377e0", 
                        "extension": [
                            {}
                        ], 
                        "reference": "Internal fragment references (start with '#') refer to contained resources.", 
                        "type": "Absolute URLs are only allowed for logical models (and can only be used in references in logical models, not resources).", 
                        "display": "Plain text narrative that identifies the resource in addition to the resource reference."
                    }
                }, 
                "display": "Plain text narrative that identifies the resource in addition to the resource reference.", 
                "_display": {
                    "id": "85a1e56e-7d09-454f-a590-0e0cb0d377e0", 
                    "extension": [
                        {}
                    ]
                }
            }, 
            "type": "StructuredValue"
        }
    ], 
    "dataRequirement": [
        {
            "value": [
                {
                    "id": "85a1e56e-7d09-454f-a590-0e0cb0d377e0", 
                    "extension": [
                        "urn:ngsi-ld:Extension:001"
                    ], 
                    "type": "For profiles, this value is set to the type of the base resource of the profile.", 
                    "_type": {
                        "id": "85a1e56e-7d09-454f-a590-0e0cb0d377e0", 
                        "extension": [
                            {}
                        ]
                    }, 
                    "profile": [
                        "The profile of the required data, specified as the uri of the profile definition."
                    ], 
                    "subjectCodeableConcept": {
                        "id": "85a1e56e-7d09-454f-a590-0e0cb0d377e0", 
                        "extension": [
                            {}
                        ], 
                        "coding": [
                            {
                                "id": "85a1e56e-7d09-454f-a590-0e0cb0d377e0", 
                                "extension": [
                                    {}
                                ], 
                                "system": "The identification of the code system that defines the meaning of the symbol in the code.", 
                                "version": "However this cannot consistently be assured, and when the meaning is not guaranteed to be consistent, the version SHOULD be exchanged.", 
                                "code": "post-coordination).", 
                                "display": "A representation of the meaning of the code in the system, following the rules of the system.", 
                                "userSelected": false
                            }
                        ], 
                        "text": "A human language representation of the concept as seen/selected/uttered by the user who entered the data and/or which represents the intended meaning of the user.", 
                        "_text": {
                            "id": "85a1e56e-7d09-454f-a590-0e0cb0d377e0", 
                            "extension": [
                                {}
                            ]
                        }
                    }, 
                    "subjectReference": {
                        "id": "85a1e56e-7d09-454f-a590-0e0cb0d377e0", 
                        "extension": [
                            {}
                        ], 
                        "reference": "Internal fragment references (start with '#') refer to contained resources.", 
                        "_reference": {
                            "id": "85a1e56e-7d09-454f-a590-0e0cb0d377e0", 
                            "extension": [
                                {}
                            ]
                        }, 
                        "type": "Absolute URLs are only allowed for logical models (and can only be used in references in logical models, not resources).", 
                        "_type": {
                            "id": "85a1e56e-7d09-454f-a590-0e0cb0d377e0", 
                            "extension": [
                                {}
                            ]
                        }, 
                        "identifier": {
                            "id": "85a1e56e-7d09-454f-a590-0e0cb0d377e0", 
                            "extension": [
                                {}
                            ], 
                            "system": "Establishes the namespace for the value - that is, a URL that describes a set values that are unique.", 
                            "value": "The portion of the identifier typically relevant to the user and which is unique within the context of the system."
                        }, 
                        "display": "Plain text narrative that identifies the resource in addition to the resource reference.", 
                        "_display": {
                            "id": "85a1e56e-7d09-454f-a590-0e0cb0d377e0", 
                            "extension": [
                                {}
                            ]
                        }
                    }, 
                    "mustSupport": [
                        "The path SHALL consist only of identifiers, constant indexers, and .resolve() (see the [Simple FHIRPath Profile](fhirpath.html#simple) for full details)."
                    ], 
                    "_mustSupport": [
                        {
                            "id": "85a1e56e-7d09-454f-a590-0e0cb0d377e0", 
                            "extension": [
                                {}
                            ]
                        }
                    ], 
                    "codeFilter": [
                        {
                            "id": "85a1e56e-7d09-454f-a590-0e0cb0d377e0", 
                            "extension": [
                                {}
                            ], 
                            "modifierExtension": [
                                {}
                            ], 
                            "path": "The path must resolve to an element of type code, Coding, or CodeableConcept.", 
                            "_path": {
                                "id": "85a1e56e-7d09-454f-a590-0e0cb0d377e0", 
                                "extension": [
                                    {}
                                ]
                            }, 
                            "searchParam": "A token parameter that refers to a search parameter defined on the specified type of the DataRequirement, and which searches on elements of type code, Coding, or CodeableConcept.", 
                            "_searchParam": {
                                "id": "85a1e56e-7d09-454f-a590-0e0cb0d377e0", 
                                "extension": [
                                    {}
                                ]
                            }, 
                            "valueSet": "If valueSet is specified, the filter will return only those data items for which the value of the code-valued element specified in the path is a member of the specified valueset.", 
                            "code": [
                                {
                                    "id": "85a1e56e-7d09-454f-a590-0e0cb0d377e0", 
                                    "extension": [
                                        {}
                                    ], 
                                    "system": "The identification of the code system that defines the meaning of the symbol in the code.", 
                                    "version": "However this cannot consistently be assured, and when the meaning is not guaranteed to be consistent, the version SHOULD be exchanged.", 
                                    "code": "post-coordination).", 
                                    "display": "A representation of the meaning of the code in the system, following the rules of the system.", 
                                    "userSelected": false
                                }
                            ]
                        }
                    ], 
                    "dateFilter": [
                        {
                            "id": "85a1e56e-7d09-454f-a590-0e0cb0d377e0", 
                            "extension": [
                                {}
                            ], 
                            "modifierExtension": [
                                {}
                            ], 
                            "path": "The path must resolve to an element of type date, dateTime, Period, Schedule, or Timing.", 
                            "_path": {
                                "id": "85a1e56e-7d09-454f-a590-0e0cb0d377e0", 
                                "extension": [
                                    {}
                                ]
                            }, 
                            "searchParam": "A date parameter that refers to a search parameter defined on the specified type of the DataRequirement, and which searches on elements of type date, dateTime, Period, Schedule, or Timing.", 
                            "_searchParam": {
                                "id": "85a1e56e-7d09-454f-a590-0e0cb0d377e0", 
                                "extension": [
                                    {}
                                ]
                            }, 
                            "valueDateTime": "If a Duration is specified, the filter will return only those data items that fall within Duration before now.", 
                            "_valueDateTime": {
                                "id": "85a1e56e-7d09-454f-a590-0e0cb0d377e0", 
                                "extension": [
                                    {}
                                ]
                            }, 
                            "valuePeriod": {
                                "id": "85a1e56e-7d09-454f-a590-0e0cb0d377e0", 
                                "extension": [
                                    {}
                                ], 
                                "start": "The boundary is inclusive.", 
                                "end": "The start may be in the past, and the end date in the future, which means that period is expected/planned to end at that time."
                            }, 
                            "valueDuration": {
                                "id": "85a1e56e-7d09-454f-a590-0e0cb0d377e0", 
                                "extension": [
                                    {}
                                ], 
                                "value": 123456, 
                                "unit": "A human-readable form of the unit.", 
                                "system": "The identification of the system that provides the coded form of the unit.", 
                                "code": "A computer processable form of the unit in some unit representation system."
                            }
                        }
                    ], 
                    "limit": 123456, 
                    "_limit": {
                        "id": "85a1e56e-7d09-454f-a590-0e0cb0d377e0", 
                        "extension": [
                            {}
                        ]
                    }, 
                    "sort": [
                        {
                            "id": "85a1e56e-7d09-454f-a590-0e0cb0d377e0", 
                            "extension": [
                                {}
                            ], 
                            "modifierExtension": [
                                {}
                            ], 
                            "path": "Note that the index must be an integer constant.", 
                            "_path": {
                                "id": "85a1e56e-7d09-454f-a590-0e0cb0d377e0", 
                                "extension": [
                                    {}
                                ]
                            }, 
                            "_direction": {
                                "id": "85a1e56e-7d09-454f-a590-0e0cb0d377e0", 
                                "extension": [
                                    {}
                                ]
                            }
                        }
                    ]
                }
            ], 
            "type": "StructuredValue"
        }
    ], 
    "id": "urn:ngsi-ld:GuidanceResponse:example"
}