{
    "resourceType": {
        "value": "DocumentManifest", 
        "type": "Text"
    }, 
    "type": "DocumentManifest", 
    "meta": [
        {
            "value": {
                "tag": [
                    {
                        "system": "http://terminology.hl7.org/CodeSystem/v3-ActReason", 
                        "code": "HTEST", 
                        "display": "test health data"
                    }
                ]
            }, 
            "type": "StructuredValue"
        }
    ], 
    "implicitRules": {
        "value": "String of characters used to identify a name or a resource", 
        "type": "Text"
    }, 
    "_implicitRules": [
        {
            "value": {
                "id": "85a1e56e-7d09-454f-a590-0e0cb0d377e0", 
                "extension": [
                    "urn:ngsi-ld:Extension:001"
                ]
            }, 
            "type": "StructuredValue"
        }
    ], 
    "language": {
        "value": "EN-US", 
        "type": "Text"
    }, 
    "_language": [
        {
            "value": {
                "id": "85a1e56e-7d09-454f-a590-0e0cb0d377e0", 
                "extension": [
                    "urn:ngsi-ld:Extension:001"
                ]
            }, 
            "type": "StructuredValue"
        }
    ], 
    "text": [
        {
            "value": {
                "status": "generated", 
                "div": "<div xmlns=\"http://www.w3.org/1999/xhtml\">Text</div>"
            }, 
            "type": "StructuredValue"
        }
    ], 
    "contained": [
        {
            "value": [
                {
                    "resourceType": "Practitioner", 
                    "id": "a1", 
                    "name": [
                        {
                            "family": "Dopplemeyer", 
                            "given": [
                                "Sherry"
                            ]
                        }
                    ], 
                    "telecom": [
                        {
                            "system": "email", 
                            "value": "john.doe@healthcare.example.org"
                        }
                    ]
                }
            ], 
            "type": "StructuredValue"
        }
    ], 
    "extension": [
        {
            "value": [
                "urn:ngsi-ld:Extension:001"
            ], 
            "type": "StructuredValue"
        }
    ], 
    "modifierExtension": [
        {
            "value": [
                "urn:ngsi-ld:Extension:modifier001"
            ], 
            "type": "StructuredValue"
        }
    ], 
    "masterIdentifier": [
        {
            "value": {
                "system": "http://example.org/documents", 
                "value": "23425234234-2346"
            }, 
            "type": "StructuredValue"
        }
    ], 
    "identifier": [
        {
            "value": [
                {
                    "system": "http://example.org/documents", 
                    "value": "23425234234-2347"
                }
            ], 
            "type": "StructuredValue"
        }
    ], 
    "status": {
        "value": "current", 
        "type": "Text"
    }, 
    "_status": [
        {
            "value": {
                "id": "85a1e56e-7d09-454f-a590-0e0cb0d377e0", 
                "extension": [
                    "urn:ngsi-ld:Extension:001"
                ]
            }, 
            "type": "StructuredValue"
        }
    ], 
    "subject": [
        {
            "value": {
                "reference": "Patient/xcda"
            }, 
            "type": "StructuredValue"
        }
    ], 
    "created": {
        "value": "2004-12-25T23:50:50-05:00", 
        "type": "Text"
    }, 
    "_created": [
        {
            "value": {
                "id": "85a1e56e-7d09-454f-a590-0e0cb0d377e0", 
                "extension": [
                    "urn:ngsi-ld:Extension:001"
                ]
            }, 
            "type": "StructuredValue"
        }
    ], 
    "author": [
        {
            "value": [
                {
                    "reference": "#a1"
                }
            ], 
            "type": "StructuredValue"
        }
    ], 
    "recipient": [
        {
            "value": [
                {
                    "reference": "Practitioner/xcda1"
                }
            ], 
            "type": "StructuredValue"
        }
    ], 
    "source": {
        "value": "urn:oid:1.3.6.1.4.1.21367.2009.1.2.1", 
        "type": "Text"
    }, 
    "_source": [
        {
            "value": {
                "id": "85a1e56e-7d09-454f-a590-0e0cb0d377e0", 
                "extension": [
                    "urn:ngsi-ld:Extension:001"
                ]
            }, 
            "type": "StructuredValue"
        }
    ], 
    "description": {
        "value": "Physical", 
        "type": "Text"
    }, 
    "_description": [
        {
            "value": {
                "id": "85a1e56e-7d09-454f-a590-0e0cb0d377e0", 
                "extension": [
                    "urn:ngsi-ld:Extension:001"
                ]
            }, 
            "type": "StructuredValue"
        }
    ], 
    "content": [
        {
            "value": [
                {
                    "reference": "DocumentReference/example"
                }
            ], 
            "type": "StructuredValue"
        }
    ], 
    "related": [
        {
            "value": [
                {
                    "identifier": {
                        "system": "http://example.org/documents", 
                        "value": "23425234234-9999"
                    }, 
                    "ref": {
                        "reference": "DocumentReference/example"
                    }
                }
            ], 
            "type": "StructuredValue"
        }
    ], 
    "hl7Type": [
        {
            "value": {
                "text": "History and Physical"
            }, 
            "type": "StructuredValue"
        }
    ], 
    "id": "urn:ngsi-ld:DocumentManifest:example"
}