{
    "resourceType": "DocumentManifest", 
    "type": "DocumentManifest", 
    "meta": {
        "tag": [
            {
                "system": "http://terminology.hl7.org/CodeSystem/v3-ActReason", 
                "code": "HTEST", 
                "display": "test health data"
            }
        ]
    }, 
    "implicitRules": "String of characters used to identify a name or a resource", 
    "_implicitRules": {
        "id": "85a1e56e-7d09-454f-a590-0e0cb0d377e0", 
        "extension": [
            "urn:ngsi-ld:Extension:001"
        ]
    }, 
    "language": "EN-US", 
    "_language": {
        "id": "85a1e56e-7d09-454f-a590-0e0cb0d377e0", 
        "extension": [
            "urn:ngsi-ld:Extension:001"
        ]
    }, 
    "text": {
        "status": "generated", 
        "div": "<div xmlns=\"http://www.w3.org/1999/xhtml\">Text</div>"
    }, 
    "contained": [
        {
            "resourceType": "Practitioner", 
            "id": "a1", 
            "name": [
                {
                    "family": "Dopplemeyer", 
                    "given": [
                        "Sherry"
                    ]
                }
            ], 
            "telecom": [
                {
                    "system": "email", 
                    "value": "john.doe@healthcare.example.org"
                }
            ]
        }
    ], 
    "extension": [
        "urn:ngsi-ld:Extension:001"
    ], 
    "modifierExtension": [
        "urn:ngsi-ld:Extension:modifier001"
    ], 
    "masterIdentifier": {
        "system": "http://example.org/documents", 
        "value": "23425234234-2346"
    }, 
    "identifier": [
        {
            "system": "http://example.org/documents", 
            "value": "23425234234-2347"
        }
    ], 
    "status": "current", 
    "_status": {
        "id": "85a1e56e-7d09-454f-a590-0e0cb0d377e0", 
        "extension": [
            "urn:ngsi-ld:Extension:001"
        ]
    }, 
    "subject": {
        "reference": "Patient/xcda"
    }, 
    "created": "2004-12-25T23:50:50-05:00", 
    "_created": {
        "id": "85a1e56e-7d09-454f-a590-0e0cb0d377e0", 
        "extension": [
            "urn:ngsi-ld:Extension:001"
        ]
    }, 
    "author": [
        {
            "reference": "#a1"
        }
    ], 
    "recipient": [
        {
            "reference": "Practitioner/xcda1"
        }
    ], 
    "source": "urn:oid:1.3.6.1.4.1.21367.2009.1.2.1", 
    "_source": {
        "id": "85a1e56e-7d09-454f-a590-0e0cb0d377e0", 
        "extension": [
            "urn:ngsi-ld:Extension:001"
        ]
    }, 
    "description": "Physical", 
    "_description": {
        "id": "85a1e56e-7d09-454f-a590-0e0cb0d377e0", 
        "extension": [
            "urn:ngsi-ld:Extension:001"
        ]
    }, 
    "content": [
        {
            "reference": "DocumentReference/example"
        }
    ], 
    "related": [
        {
            "identifier": {
                "system": "http://example.org/documents", 
                "value": "23425234234-9999"
            }, 
            "ref": {
                "reference": "DocumentReference/example"
            }
        }
    ], 
    "hl7Type": {
        "text": "History and Physical"
    }, 
    "id": "urn:ngsi-ld:DocumentManifest:example"
}