{
    "resourceType": "CarePlan", 
    "type": "CarePlan", 
    "meta": {
        "tag": [
            {
                "system": "http://terminology.hl7.org/CodeSystem/v3-ActReason", 
                "code": "HTEST", 
                "display": "test health data"
            }
        ]
    }, 
    "implicitRules": "String of characters used to identify a name or a resource", 
    "_implicitRules": {
        "id": "85a1e56e-7d09-454f-a590-0e0cb0d377e0", 
        "extension": [
            "urn:ngsi-ld:Extension:001"
        ]
    }, 
    "language": "EN-US", 
    "_language": {
        "id": "85a1e56e-7d09-454f-a590-0e0cb0d377e0", 
        "extension": [
            "urn:ngsi-ld:Extension:001"
        ]
    }, 
    "text": {
        "status": "additional", 
        "div": "<div xmlns=\"http://www.w3.org/1999/xhtml\">\n      <p> A simple care plan to indicate a patient taking their weight once a day because of obesity.</p>\n    </div>"
    }, 
    "contained": [
        {
            "resourceType": "Condition", 
            "id": "p1", 
            "clinicalStatus": {
                "coding": [
                    {
                        "system": "http://terminology.hl7.org/CodeSystem/condition-clinical", 
                        "code": "active"
                    }
                ]
            }, 
            "verificationStatus": {
                "coding": [
                    {
                        "system": "http://terminology.hl7.org/CodeSystem/condition-ver-status", 
                        "code": "confirmed"
                    }
                ]
            }, 
            "code": {
                "text": "Obesity"
            }, 
            "subject": {
                "reference": "Patient/example", 
                "display": "Peter James Chalmers"
            }
        }
    ], 
    "extension": [
        "urn:ngsi-ld:Extension:001"
    ], 
    "modifierExtension": [
        "urn:ngsi-ld:Extension:modifier001"
    ], 
    "identifier": [
        {
            "value": "12345"
        }
    ], 
    "instantiatesCanonical": [
        "The URL pointing to a FHIR-defined protocol, guideline, questionnaire or other definition that is adhered to in whole or in part by this CarePlan."
    ], 
    "instantiatesUri": [
        "http://example.org/protocol-for-obesity"
    ], 
    "_instantiatesUri": [
        {
            "id": "85a1e56e-7d09-454f-a590-0e0cb0d377e0", 
            "extension": [
                "urn:ngsi-ld:Extension:001"
            ]
        }
    ], 
    "basedOn": [
        {
            "display": "Management of Type 2 Diabetes"
        }
    ], 
    "replaces": [
        {
            "display": "Plan from urgent care clinic"
        }
    ], 
    "partOf": [
        {
            "display": "Overall wellness plan"
        }
    ], 
    "status": "active", 
    "_status": {
        "id": "85a1e56e-7d09-454f-a590-0e0cb0d377e0", 
        "extension": [
            "urn:ngsi-ld:Extension:001"
        ]
    }, 
    "intent": "plan", 
    "_intent": {
        "id": "85a1e56e-7d09-454f-a590-0e0cb0d377e0", 
        "extension": [
            "urn:ngsi-ld:Extension:001"
        ]
    }, 
    "category": [
        {
            "text": "Weight management plan"
        }
    ], 
    "title": "A sequence of Unicode characters", 
    "_title": {
        "id": "85a1e56e-7d09-454f-a590-0e0cb0d377e0", 
        "extension": [
            "urn:ngsi-ld:Extension:001"
        ]
    }, 
    "description": "Manage obesity and weight loss", 
    "_description": {
        "id": "85a1e56e-7d09-454f-a590-0e0cb0d377e0", 
        "extension": [
            "urn:ngsi-ld:Extension:001"
        ]
    }, 
    "subject": {
        "reference": "Patient/example", 
        "display": "Peter James Chalmers"
    }, 
    "encounter": {
        "reference": "Encounter/home"
    }, 
    "period": {
        "end": "2017-06-01"
    }, 
    "created": "2016-01-01", 
    "_created": {
        "id": "85a1e56e-7d09-454f-a590-0e0cb0d377e0", 
        "extension": [
            "urn:ngsi-ld:Extension:001"
        ]
    }, 
    "author": {
        "reference": "Practitioner/example", 
        "display": "Dr Adam Careful"
    }, 
    "contributor": [
        {
            "id": "85a1e56e-7d09-454f-a590-0e0cb0d377e0", 
            "extension": [
                "urn:ngsi-ld:Extension:001"
            ], 
            "reference": "Internal fragment references (start with '#') refer to contained resources.", 
            "_reference": {
                "id": "85a1e56e-7d09-454f-a590-0e0cb0d377e0", 
                "extension": [
                    {}
                ]
            }, 
            "type": "Absolute URLs are only allowed for logical models (and can only be used in references in logical models, not resources).", 
            "_type": {
                "id": "85a1e56e-7d09-454f-a590-0e0cb0d377e0", 
                "extension": [
                    {}
                ]
            }, 
            "identifier": {
                "id": "85a1e56e-7d09-454f-a590-0e0cb0d377e0", 
                "extension": [
                    {}
                ], 
                "_use": {
                    "id": "85a1e56e-7d09-454f-a590-0e0cb0d377e0", 
                    "extension": [
                        {}
                    ]
                }, 
                "type": {
                    "id": "85a1e56e-7d09-454f-a590-0e0cb0d377e0", 
                    "extension": [
                        {}
                    ], 
                    "text": "A human language representation of the concept as seen/selected/uttered by the user who entered the data and/or which represents the intended meaning of the user."
                }, 
                "system": "Establishes the namespace for the value - that is, a URL that describes a set values that are unique.", 
                "_system": {
                    "id": "85a1e56e-7d09-454f-a590-0e0cb0d377e0", 
                    "extension": [
                        {}
                    ]
                }, 
                "value": "The portion of the identifier typically relevant to the user and which is unique within the context of the system.", 
                "_value": {
                    "id": "85a1e56e-7d09-454f-a590-0e0cb0d377e0", 
                    "extension": [
                        {}
                    ]
                }, 
                "period": {
                    "id": "85a1e56e-7d09-454f-a590-0e0cb0d377e0", 
                    "extension": [
                        {}
                    ], 
                    "start": "The boundary is inclusive.", 
                    "end": "The start may be in the past, and the end date in the future, which means that period is expected/planned to end at that time."
                }, 
                "assigner": {
                    "id": "85a1e56e-7d09-454f-a590-0e0cb0d377e0", 
                    "extension": [
                        {}
                    ], 
                    "reference": "Internal fragment references (start with '#') refer to contained resources.", 
                    "type": "Absolute URLs are only allowed for logical models (and can only be used in references in logical models, not resources).", 
                    "display": "Plain text narrative that identifies the resource in addition to the resource reference."
                }
            }, 
            "display": "Plain text narrative that identifies the resource in addition to the resource reference.", 
            "_display": {
                "id": "85a1e56e-7d09-454f-a590-0e0cb0d377e0", 
                "extension": [
                    {}
                ]
            }
        }
    ], 
    "careTeam": [
        {
            "reference": "CareTeam/example"
        }
    ], 
    "addresses": [
        {
            "reference": "#p1", 
            "display": "obesity"
        }
    ], 
    "supportingInfo": [
        {
            "id": "85a1e56e-7d09-454f-a590-0e0cb0d377e0", 
            "extension": [
                "urn:ngsi-ld:Extension:001"
            ], 
            "reference": "Internal fragment references (start with '#') refer to contained resources.", 
            "_reference": {
                "id": "85a1e56e-7d09-454f-a590-0e0cb0d377e0", 
                "extension": [
                    {}
                ]
            }, 
            "type": "Absolute URLs are only allowed for logical models (and can only be used in references in logical models, not resources).", 
            "_type": {
                "id": "85a1e56e-7d09-454f-a590-0e0cb0d377e0", 
                "extension": [
                    {}
                ]
            }, 
            "identifier": {
                "id": "85a1e56e-7d09-454f-a590-0e0cb0d377e0", 
                "extension": [
                    {}
                ], 
                "_use": {
                    "id": "85a1e56e-7d09-454f-a590-0e0cb0d377e0", 
                    "extension": [
                        {}
                    ]
                }, 
                "type": {
                    "id": "85a1e56e-7d09-454f-a590-0e0cb0d377e0", 
                    "extension": [
                        {}
                    ], 
                    "text": "A human language representation of the concept as seen/selected/uttered by the user who entered the data and/or which represents the intended meaning of the user."
                }, 
                "system": "Establishes the namespace for the value - that is, a URL that describes a set values that are unique.", 
                "_system": {
                    "id": "85a1e56e-7d09-454f-a590-0e0cb0d377e0", 
                    "extension": [
                        {}
                    ]
                }, 
                "value": "The portion of the identifier typically relevant to the user and which is unique within the context of the system.", 
                "_value": {
                    "id": "85a1e56e-7d09-454f-a590-0e0cb0d377e0", 
                    "extension": [
                        {}
                    ]
                }, 
                "period": {
                    "id": "85a1e56e-7d09-454f-a590-0e0cb0d377e0", 
                    "extension": [
                        {}
                    ], 
                    "start": "The boundary is inclusive.", 
                    "end": "The start may be in the past, and the end date in the future, which means that period is expected/planned to end at that time."
                }, 
                "assigner": {
                    "id": "85a1e56e-7d09-454f-a590-0e0cb0d377e0", 
                    "extension": [
                        {}
                    ], 
                    "reference": "Internal fragment references (start with '#') refer to contained resources.", 
                    "type": "Absolute URLs are only allowed for logical models (and can only be used in references in logical models, not resources).", 
                    "display": "Plain text narrative that identifies the resource in addition to the resource reference."
                }
            }, 
            "display": "Plain text narrative that identifies the resource in addition to the resource reference.", 
            "_display": {
                "id": "85a1e56e-7d09-454f-a590-0e0cb0d377e0", 
                "extension": [
                    {}
                ]
            }
        }
    ], 
    "goal": [
        {
            "reference": "Goal/example"
        }
    ], 
    "activity": [
        {
            "outcomeCodeableConcept": [
                {
                    "coding": [
                        {
                            "system": "http://snomed.info/sct", 
                            "code": "161832001", 
                            "display": "Progressive weight loss"
                        }
                    ]
                }
            ], 
            "outcomeReference": [
                {
                    "reference": "Observation/example", 
                    "display": "Weight Measured"
                }
            ], 
            "detail": {
                "code": {
                    "coding": [
                        {
                            "system": "http://loinc.org", 
                            "code": "3141-9", 
                            "display": "Weight Measured"
                        }, 
                        {
                            "system": "http://snomed.info/sct", 
                            "code": "27113001", 
                            "display": "Body weight"
                        }
                    ]
                }, 
                "status": "completed", 
                "statusReason": {
                    "text": "Achieved weight loss to mitigate diabetes risk."
                }, 
                "doNotPerform": false, 
                "scheduledTiming": {
                    "repeat": {
                        "frequency": 1, 
                        "period": 1, 
                        "periodUnit": "d"
                    }
                }, 
                "location": {
                    "display": "Patient's home"
                }, 
                "performer": [
                    {
                        "reference": "Patient/example", 
                        "display": "Peter James Chalmers"
                    }
                ]
            }
        }
    ], 
    "note": [
        {
            "id": "85a1e56e-7d09-454f-a590-0e0cb0d377e0", 
            "extension": [
                "urn:ngsi-ld:Extension:001"
            ], 
            "authorReference": {
                "id": "85a1e56e-7d09-454f-a590-0e0cb0d377e0", 
                "extension": [
                    {}
                ], 
                "reference": "Internal fragment references (start with '#') refer to contained resources.", 
                "_reference": {
                    "id": "85a1e56e-7d09-454f-a590-0e0cb0d377e0", 
                    "extension": [
                        {}
                    ]
                }, 
                "type": "Absolute URLs are only allowed for logical models (and can only be used in references in logical models, not resources).", 
                "_type": {
                    "id": "85a1e56e-7d09-454f-a590-0e0cb0d377e0", 
                    "extension": [
                        {}
                    ]
                }, 
                "identifier": {
                    "id": "85a1e56e-7d09-454f-a590-0e0cb0d377e0", 
                    "extension": [
                        {}
                    ], 
                    "system": "Establishes the namespace for the value - that is, a URL that describes a set values that are unique.", 
                    "value": "The portion of the identifier typically relevant to the user and which is unique within the context of the system."
                }, 
                "display": "Plain text narrative that identifies the resource in addition to the resource reference.", 
                "_display": {
                    "id": "85a1e56e-7d09-454f-a590-0e0cb0d377e0", 
                    "extension": [
                        {}
                    ]
                }
            }, 
            "authorString": "The individual responsible for making the annotation.", 
            "_authorString": {
                "id": "85a1e56e-7d09-454f-a590-0e0cb0d377e0", 
                "extension": [
                    {}
                ]
            }, 
            "time": "14:59:59Z", 
            "_time": {
                "id": "85a1e56e-7d09-454f-a590-0e0cb0d377e0", 
                "extension": [
                    {}
                ]
            }, 
            "text": "The text of the annotation in markdown format.", 
            "_text": {
                "id": "85a1e56e-7d09-454f-a590-0e0cb0d377e0", 
                "extension": [
                    {}
                ]
            }
        }
    ], 
    "id": "urn:ngsi-ld:CarePlan:example"
}