{
    "resourceType": {
        "value": "HealthcareService", 
        "type": "Text"
    }, 
    "type": "HealthcareService", 
    "meta": [
        {
            "value": {
                "tag": [
                    {
                        "system": "http://terminology.hl7.org/CodeSystem/v3-ActReason", 
                        "code": "HTEST", 
                        "display": "test health data"
                    }
                ]
            }, 
            "type": "StructuredValue"
        }
    ], 
    "implicitRules": {
        "value": "String of characters used to identify a name or a resource", 
        "type": "Text"
    }, 
    "_implicitRules": [
        {
            "value": {
                "id": "85a1e56e-7d09-454f-a590-0e0cb0d377e0", 
                "extension": [
                    "urn:ngsi-ld:Extension:001"
                ]
            }, 
            "type": "StructuredValue"
        }
    ], 
    "language": {
        "value": "EN-US", 
        "type": "Text"
    }, 
    "_language": [
        {
            "value": {
                "id": "85a1e56e-7d09-454f-a590-0e0cb0d377e0", 
                "extension": [
                    "urn:ngsi-ld:Extension:001"
                ]
            }, 
            "type": "StructuredValue"
        }
    ], 
    "text": [
        {
            "value": {
                "status": "generated", 
                "div": "<div xmlns=\"http://www.w3.org/1999/xhtml\">\n\t\t\t25 Dec 2013 9:15am - 9:30am: <b>Busy</b> Physiotherapy\n\t\t</div>"
            }, 
            "type": "StructuredValue"
        }
    ], 
    "contained": [
        {
            "value": [
                {
                    "resourceType": "Location", 
                    "id": "DenBurg", 
                    "description": "Greater Denburg area", 
                    "mode": "instance", 
                    "physicalType": {
                        "coding": [
                            {
                                "code": "area", 
                                "display": "Area"
                            }
                        ]
                    }
                }
            ], 
            "type": "StructuredValue"
        }
    ], 
    "extension": [
        {
            "value": [
                "urn:ngsi-ld:Extension:001"
            ], 
            "type": "StructuredValue"
        }
    ], 
    "modifierExtension": [
        {
            "value": [
                "urn:ngsi-ld:Extension:modifier001"
            ], 
            "type": "StructuredValue"
        }
    ], 
    "identifier": [
        {
            "value": [
                {
                    "system": "http://example.org/shared-ids", 
                    "value": "HS-12"
                }
            ], 
            "type": "StructuredValue"
        }
    ], 
    "active": [
        {
            "value": true, 
            "type": "Number"
        }
    ], 
    "_active": [
        {
            "value": {
                "id": "85a1e56e-7d09-454f-a590-0e0cb0d377e0", 
                "extension": [
                    "urn:ngsi-ld:Extension:001"
                ]
            }, 
            "type": "StructuredValue"
        }
    ], 
    "providedBy": [
        {
            "value": {
                "reference": "Organization/f001", 
                "display": "Burgers University Medical Center"
            }, 
            "type": "StructuredValue"
        }
    ], 
    "category": [
        {
            "value": [
                {
                    "coding": [
                        {
                            "system": "http://terminology.hl7.org/CodeSystem/service-category", 
                            "code": "8", 
                            "display": "Counselling"
                        }
                    ], 
                    "text": "Counselling"
                }
            ], 
            "type": "StructuredValue"
        }
    ], 
    "specialty": [
        {
            "value": [
                {
                    "coding": [
                        {
                            "system": "http://snomed.info/sct", 
                            "code": "47505003", 
                            "display": "Posttraumatic stress disorder"
                        }
                    ]
                }
            ], 
            "type": "StructuredValue"
        }
    ], 
    "location": [
        {
            "value": [
                {
                    "reference": "Location/1"
                }
            ], 
            "type": "StructuredValue"
        }
    ], 
    "name": {
        "value": "Consulting psychologists and/or psychology services", 
        "type": "Text"
    }, 
    "_name": [
        {
            "value": {
                "id": "85a1e56e-7d09-454f-a590-0e0cb0d377e0", 
                "extension": [
                    "urn:ngsi-ld:Extension:001"
                ]
            }, 
            "type": "StructuredValue"
        }
    ], 
    "comment": {
        "value": "Providing Specialist psychology services to the greater Den Burg area, many years of experience dealing with PTSD issues", 
        "type": "Text"
    }, 
    "_comment": [
        {
            "value": {
                "id": "85a1e56e-7d09-454f-a590-0e0cb0d377e0", 
                "extension": [
                    "urn:ngsi-ld:Extension:001"
                ]
            }, 
            "type": "StructuredValue"
        }
    ], 
    "extraDetails": {
        "value": "Several assessments are required for these specialist services, and the waiting times can be greater than 3 months at times. Existing patients are prioritized when requesting appointments on the schedule.", 
        "type": "Text"
    }, 
    "_extraDetails": [
        {
            "value": {
                "id": "85a1e56e-7d09-454f-a590-0e0cb0d377e0", 
                "extension": [
                    "urn:ngsi-ld:Extension:001"
                ]
            }, 
            "type": "StructuredValue"
        }
    ], 
    "photo": [
        {
            "value": {
                "id": "85a1e56e-7d09-454f-a590-0e0cb0d377e0", 
                "extension": [
                    "urn:ngsi-ld:Extension:001"
                ], 
                "contentType": "Includes mime type parameters such as charset where appropriate.", 
                "_contentType": {
                    "id": "85a1e56e-7d09-454f-a590-0e0cb0d377e0", 
                    "extension": [
                        {}
                    ]
                }, 
                "language": "EN-US", 
                "_language": {
                    "id": "85a1e56e-7d09-454f-a590-0e0cb0d377e0", 
                    "extension": [
                        {}
                    ]
                }, 
                "data": "The actual data of the attachment - a sequence of bytes, base64 encoded.", 
                "_data": {
                    "id": "85a1e56e-7d09-454f-a590-0e0cb0d377e0", 
                    "extension": [
                        {}
                    ]
                }, 
                "url": "A location where the data can be accessed.", 
                "_url": {
                    "id": "85a1e56e-7d09-454f-a590-0e0cb0d377e0", 
                    "extension": [
                        {}
                    ]
                }, 
                "size": 123456, 
                "_size": {
                    "id": "85a1e56e-7d09-454f-a590-0e0cb0d377e0", 
                    "extension": [
                        {}
                    ]
                }, 
                "hash": "Represented using base64.", 
                "_hash": {
                    "id": "85a1e56e-7d09-454f-a590-0e0cb0d377e0", 
                    "extension": [
                        {}
                    ]
                }, 
                "title": "A label or set of text to display in place of the data.", 
                "_title": {
                    "id": "85a1e56e-7d09-454f-a590-0e0cb0d377e0", 
                    "extension": [
                        {}
                    ]
                }, 
                "creation": "The date that the attachment was first created.", 
                "_creation": {
                    "id": "85a1e56e-7d09-454f-a590-0e0cb0d377e0", 
                    "extension": [
                        {}
                    ]
                }
            }, 
            "type": "StructuredValue"
        }
    ], 
    "telecom": [
        {
            "value": [
                {
                    "system": "phone", 
                    "value": "(555) silent", 
                    "use": "work"
                }, 
                {
                    "system": "email", 
                    "value": "directaddress@example.com", 
                    "use": "work"
                }
            ], 
            "type": "StructuredValue"
        }
    ], 
    "coverageArea": [
        {
            "value": [
                {
                    "reference": "#DenBurg", 
                    "display": "Greater Denburg area"
                }
            ], 
            "type": "StructuredValue"
        }
    ], 
    "serviceProvisionCode": [
        {
            "value": [
                {
                    "coding": [
                        {
                            "system": "http://terminology.hl7.org/CodeSystem/service-provision-conditions", 
                            "code": "cost", 
                            "display": "Fees apply"
                        }
                    ]
                }
            ], 
            "type": "StructuredValue"
        }
    ], 
    "eligibility": [
        {
            "value": [
                {
                    "code": {
                        "coding": [
                            {
                                "display": "DVA Required"
                            }
                        ]
                    }, 
                    "comment": "Evidence of application for DVA status may be sufficient for commencing assessment"
                }
            ], 
            "type": "StructuredValue"
        }
    ], 
    "program": [
        {
            "value": [
                {
                    "text": "PTSD outreach"
                }
            ], 
            "type": "StructuredValue"
        }
    ], 
    "characteristic": [
        {
            "value": [
                {
                    "coding": [
                        {
                            "display": "Wheelchair access"
                        }
                    ]
                }
            ], 
            "type": "StructuredValue"
        }
    ], 
    "communication": [
        {
            "value": [
                {
                    "id": "85a1e56e-7d09-454f-a590-0e0cb0d377e0", 
                    "extension": [
                        "urn:ngsi-ld:Extension:001"
                    ], 
                    "coding": [
                        {
                            "id": "85a1e56e-7d09-454f-a590-0e0cb0d377e0", 
                            "extension": [
                                {}
                            ], 
                            "system": "The identification of the code system that defines the meaning of the symbol in the code.", 
                            "_system": {
                                "id": "85a1e56e-7d09-454f-a590-0e0cb0d377e0", 
                                "extension": [
                                    {}
                                ]
                            }, 
                            "version": "However this cannot consistently be assured, and when the meaning is not guaranteed to be consistent, the version SHOULD be exchanged.", 
                            "_version": {
                                "id": "85a1e56e-7d09-454f-a590-0e0cb0d377e0", 
                                "extension": [
                                    {}
                                ]
                            }, 
                            "code": "post-coordination).", 
                            "_code": {
                                "id": "85a1e56e-7d09-454f-a590-0e0cb0d377e0", 
                                "extension": [
                                    {}
                                ]
                            }, 
                            "display": "A representation of the meaning of the code in the system, following the rules of the system.", 
                            "_display": {
                                "id": "85a1e56e-7d09-454f-a590-0e0cb0d377e0", 
                                "extension": [
                                    {}
                                ]
                            }, 
                            "userSelected": false, 
                            "_userSelected": {
                                "id": "85a1e56e-7d09-454f-a590-0e0cb0d377e0", 
                                "extension": [
                                    {}
                                ]
                            }
                        }
                    ], 
                    "text": "A human language representation of the concept as seen/selected/uttered by the user who entered the data and/or which represents the intended meaning of the user.", 
                    "_text": {
                        "id": "85a1e56e-7d09-454f-a590-0e0cb0d377e0", 
                        "extension": [
                            {}
                        ]
                    }
                }
            ], 
            "type": "StructuredValue"
        }
    ], 
    "referralMethod": [
        {
            "value": [
                {
                    "coding": [
                        {
                            "code": "phone", 
                            "display": "Phone"
                        }
                    ]
                }, 
                {
                    "coding": [
                        {
                            "code": "fax", 
                            "display": "Fax"
                        }
                    ]
                }, 
                {
                    "coding": [
                        {
                            "code": "elec", 
                            "display": "Secure Messaging"
                        }
                    ]
                }, 
                {
                    "coding": [
                        {
                            "code": "semail", 
                            "display": "Secure Email"
                        }
                    ]
                }
            ], 
            "type": "StructuredValue"
        }
    ], 
    "appointmentRequired": [
        {
            "value": false, 
            "type": "Number"
        }
    ], 
    "_appointmentRequired": [
        {
            "value": {
                "id": "85a1e56e-7d09-454f-a590-0e0cb0d377e0", 
                "extension": [
                    "urn:ngsi-ld:Extension:001"
                ]
            }, 
            "type": "StructuredValue"
        }
    ], 
    "availableTime": [
        {
            "value": [
                {
                    "daysOfWeek": [
                        "wed"
                    ], 
                    "allDay": true
                }, 
                {
                    "daysOfWeek": [
                        "mon", 
                        "tue", 
                        "thu", 
                        "fri"
                    ], 
                    "availableStartTime": "08:30:00", 
                    "availableEndTime": "05:30:00"
                }, 
                {
                    "daysOfWeek": [
                        "sat", 
                        "fri"
                    ], 
                    "availableStartTime": "09:30:00", 
                    "availableEndTime": "04:30:00"
                }
            ], 
            "type": "StructuredValue"
        }
    ], 
    "notAvailable": [
        {
            "value": [
                {
                    "description": "Christmas/Boxing Day", 
                    "during": {
                        "start": "2015-12-25", 
                        "end": "2015-12-26"
                    }
                }, 
                {
                    "description": "New Years Day", 
                    "during": {
                        "start": "2016-01-01", 
                        "end": "2016-01-01"
                    }
                }
            ], 
            "type": "StructuredValue"
        }
    ], 
    "availabilityExceptions": {
        "value": "Reduced capacity is available during the Christmas period", 
        "type": "Text"
    }, 
    "_availabilityExceptions": [
        {
            "value": {
                "id": "85a1e56e-7d09-454f-a590-0e0cb0d377e0", 
                "extension": [
                    "urn:ngsi-ld:Extension:001"
                ]
            }, 
            "type": "StructuredValue"
        }
    ], 
    "endpoint": [
        {
            "value": [
                {
                    "reference": "Endpoint/example"
                }
            ], 
            "type": "StructuredValue"
        }
    ], 
    "hl7Type": [
        {
            "value": [
                {
                    "coding": [
                        {
                            "system": "http://snomed.info/sct", 
                            "code": "394913002", 
                            "display": "Psychotherapy"
                        }
                    ]
                }, 
                {
                    "coding": [
                        {
                            "system": "http://snomed.info/sct", 
                            "code": "394587001", 
                            "display": "Psychiatry"
                        }
                    ]
                }
            ], 
            "type": "StructuredValue"
        }
    ], 
    "id": "urn:ngsi-ld:HealthcareService:example"
}