{
    "resourceType": "RequestGroup", 
    "type": "RequestGroup", 
    "meta": {
        "tag": [
            {
                "system": "http://terminology.hl7.org/CodeSystem/v3-ActReason", 
                "code": "HTEST", 
                "display": "test health data"
            }
        ]
    }, 
    "implicitRules": " String of characters used to identify a name or a resource", 
    "_implicitRules": {
        "id": "85a1e56e-7d09-454f-a590-0e0cb0d377e0", 
        "extension": [
            "urn:ngsi-ld:Extension:001"
        ]
    }, 
    "language": "EN-US", 
    "_language": {
        "id": "85a1e56e-7d09-454f-a590-0e0cb0d377e0", 
        "extension": [
            "urn:ngsi-ld:Extension:001"
        ]
    }, 
    "text": {
        "status": "generated", 
        "div": "<div xmlns=\"http://www.w3.org/1999/xhtml\">Administer gemcitabine and carboplatin.</div>"
    }, 
    "contained": [
        {
            "resourceType": "MedicationRequest", 
            "id": "1111", 
            "status": "unknown", 
            "intent": "proposal", 
            "medicationCodeableConcept": {
                "coding": [
                    {
                        "system": "http://www.nlm.nih.gov/research/umls/rxnorm", 
                        "code": "12574", 
                        "display": "gemcitabine"
                    }
                ], 
                "text": "gemcitabine"
            }, 
            "subject": {
                "reference": "Patient/example"
            }, 
            "dosageInstruction": [
                {
                    "text": "1250 mg/m\u00b2 IV over 30 minutes", 
                    "timing": {
                        "repeat": {
                            "duration": 30, 
                            "durationUnit": "min"
                        }
                    }, 
                    "route": {
                        "text": "IV"
                    }, 
                    "doseAndRate": [
                        {
                            "type": {
                                "coding": [
                                    {
                                        "system": "http://terminology.hl7.org/CodeSystem/dose-rate-type", 
                                        "code": "ordered", 
                                        "display": "Ordered"
                                    }
                                ]
                            }, 
                            "doseQuantity": {
                                "value": 1250, 
                                "unit": "mg/m\u00b2"
                            }
                        }
                    ]
                }
            ]
        }, 
        {
            "resourceType": "MedicationRequest", 
            "id": "2222", 
            "status": "unknown", 
            "intent": "proposal", 
            "medicationCodeableConcept": {
                "coding": [
                    {
                        "system": "http://www.nlm.nih.gov/research/umls/rxnorm", 
                        "code": "40048", 
                        "display": "Carboplatin"
                    }
                ], 
                "text": "CARBOplatin"
            }, 
            "subject": {
                "reference": "Patient/example"
            }, 
            "dosageInstruction": [
                {
                    "text": "AUC 5 IV over 30 minutes", 
                    "timing": {
                        "repeat": {
                            "duration": 30, 
                            "durationUnit": "min"
                        }
                    }, 
                    "route": {
                        "text": "IV"
                    }, 
                    "doseAndRate": [
                        {
                            "type": {
                                "coding": [
                                    {
                                        "system": "http://terminology.hl7.org/CodeSystem/dose-rate-type", 
                                        "code": "ordered", 
                                        "display": "Ordered"
                                    }
                                ]
                            }, 
                            "doseQuantity": {
                                "extension": [
                                    {
                                        "url": "http://example.org/fhir/AUC-dose", 
                                        "valueInteger": 5
                                    }
                                ]
                            }
                        }
                    ]
                }
            ]
        }
    ], 
    "extension": [
        "urn:ngsi-ld:Extension:001"
    ], 
    "modifierExtension": [
        "urn:ngsi-ld:Extension:modifier001"
    ], 
    "identifier": [
        {
            "value": "requestgroup-kdn5"
        }
    ], 
    "instantiatesCanonical": [
        "http://example.org/fhir/PlanDefinition/KDN5"
    ], 
    "_instantiatesCanonical": [
        {
            "id": "85a1e56e-7d09-454f-a590-0e0cb0d377e0", 
            "extension": [
                "urn:ngsi-ld:Extension:001"
            ]
        }
    ], 
    "instantiatesUri": [
        "instantiatesUri as Text"
    ], 
    "_instantiatesUri": [
        {
            "id": "85a1e56e-7d09-454f-a590-0e0cb0d377e0", 
            "extension": [
                "urn:ngsi-ld:Extension:001"
            ]
        }
    ], 
    "basedOn": [
        {
            "id": "85a1e56e-7d09-454f-a590-0e0cb0d377e0", 
            "extension": [
                "urn:ngsi-ld:Extension:001"
            ], 
            "reference": "reference as Text", 
            "_reference": {
                "id": "85a1e56e-7d09-454f-a590-0e0cb0d377e0", 
                "extension": [
                    {}
                ]
            }, 
            "type": "type as Text", 
            "_type": {
                "id": "85a1e56e-7d09-454f-a590-0e0cb0d377e0", 
                "extension": [
                    {}
                ]
            }, 
            "identifier": {
                "id": "85a1e56e-7d09-454f-a590-0e0cb0d377e0", 
                "extension": [
                    {}
                ], 
                "_use": {
                    "id": "85a1e56e-7d09-454f-a590-0e0cb0d377e0", 
                    "extension": [
                        {}
                    ]
                }, 
                "type": {
                    "id": "85a1e56e-7d09-454f-a590-0e0cb0d377e0", 
                    "extension": [
                        {}
                    ], 
                    "text": "text as Text"
                }, 
                "system": "system as Text", 
                "_system": {
                    "id": "85a1e56e-7d09-454f-a590-0e0cb0d377e0", 
                    "extension": [
                        {}
                    ]
                }, 
                "value": "value as Text", 
                "_value": {
                    "id": "85a1e56e-7d09-454f-a590-0e0cb0d377e0", 
                    "extension": [
                        {}
                    ]
                }, 
                "period": {
                    "id": "85a1e56e-7d09-454f-a590-0e0cb0d377e0", 
                    "extension": [
                        {}
                    ], 
                    "start": "start as Text", 
                    "end": "end as Text"
                }, 
                "assigner": {
                    "id": "85a1e56e-7d09-454f-a590-0e0cb0d377e0", 
                    "extension": [
                        {}
                    ], 
                    "reference": "reference as Text", 
                    "type": "type as Text", 
                    "display": "display as Text"
                }
            }, 
            "display": "display as Text", 
            "_display": {
                "id": "85a1e56e-7d09-454f-a590-0e0cb0d377e0", 
                "extension": [
                    {}
                ]
            }
        }
    ], 
    "replaces": [
        {
            "id": "85a1e56e-7d09-454f-a590-0e0cb0d377e0", 
            "extension": [
                "urn:ngsi-ld:Extension:001"
            ], 
            "reference": "reference as Text", 
            "_reference": {
                "id": "85a1e56e-7d09-454f-a590-0e0cb0d377e0", 
                "extension": [
                    {}
                ]
            }, 
            "type": "type as Text", 
            "_type": {
                "id": "85a1e56e-7d09-454f-a590-0e0cb0d377e0", 
                "extension": [
                    {}
                ]
            }, 
            "identifier": {
                "id": "85a1e56e-7d09-454f-a590-0e0cb0d377e0", 
                "extension": [
                    {}
                ], 
                "_use": {
                    "id": "85a1e56e-7d09-454f-a590-0e0cb0d377e0", 
                    "extension": [
                        {}
                    ]
                }, 
                "type": {
                    "id": "85a1e56e-7d09-454f-a590-0e0cb0d377e0", 
                    "extension": [
                        {}
                    ], 
                    "text": "text as Text"
                }, 
                "system": "system as Text", 
                "_system": {
                    "id": "85a1e56e-7d09-454f-a590-0e0cb0d377e0", 
                    "extension": [
                        {}
                    ]
                }, 
                "value": "value as Text", 
                "_value": {
                    "id": "85a1e56e-7d09-454f-a590-0e0cb0d377e0", 
                    "extension": [
                        {}
                    ]
                }, 
                "period": {
                    "id": "85a1e56e-7d09-454f-a590-0e0cb0d377e0", 
                    "extension": [
                        {}
                    ], 
                    "start": "start as Text", 
                    "end": "end as Text"
                }, 
                "assigner": {
                    "id": "85a1e56e-7d09-454f-a590-0e0cb0d377e0", 
                    "extension": [
                        {}
                    ], 
                    "reference": "reference as Text", 
                    "type": "type as Text", 
                    "display": "display as Text"
                }
            }, 
            "display": "display as Text", 
            "_display": {
                "id": "85a1e56e-7d09-454f-a590-0e0cb0d377e0", 
                "extension": [
                    {}
                ]
            }
        }
    ], 
    "groupIdentifier": {
        "id": "85a1e56e-7d09-454f-a590-0e0cb0d377e0", 
        "extension": [
            "urn:ngsi-ld:Extension:001"
        ], 
        "_use": {
            "id": "85a1e56e-7d09-454f-a590-0e0cb0d377e0", 
            "extension": [
                {}
            ]
        }, 
        "type": {
            "id": "85a1e56e-7d09-454f-a590-0e0cb0d377e0", 
            "extension": [
                {}
            ], 
            "coding": [
                {
                    "id": "85a1e56e-7d09-454f-a590-0e0cb0d377e0", 
                    "extension": [
                        {}
                    ], 
                    "system": "system as Text", 
                    "version": "version as Text", 
                    "code": "code as Text", 
                    "display": "display as Text", 
                    "userSelected": false
                }
            ], 
            "text": "text as Text", 
            "_text": {
                "id": "85a1e56e-7d09-454f-a590-0e0cb0d377e0", 
                "extension": [
                    {}
                ]
            }
        }, 
        "system": "system as Text", 
        "_system": {
            "id": "85a1e56e-7d09-454f-a590-0e0cb0d377e0", 
            "extension": [
                {}
            ]
        }, 
        "value": "value as Text", 
        "_value": {
            "id": "85a1e56e-7d09-454f-a590-0e0cb0d377e0", 
            "extension": [
                {}
            ]
        }, 
        "period": {
            "id": "85a1e56e-7d09-454f-a590-0e0cb0d377e0", 
            "extension": [
                {}
            ], 
            "start": "start as Text", 
            "_start": {
                "id": "85a1e56e-7d09-454f-a590-0e0cb0d377e0", 
                "extension": [
                    {}
                ]
            }, 
            "end": "end as Text", 
            "_end": {
                "id": "85a1e56e-7d09-454f-a590-0e0cb0d377e0", 
                "extension": [
                    {}
                ]
            }
        }, 
        "assigner": {
            "id": "85a1e56e-7d09-454f-a590-0e0cb0d377e0", 
            "extension": [
                {}
            ], 
            "reference": "reference as Text", 
            "_reference": {
                "id": "85a1e56e-7d09-454f-a590-0e0cb0d377e0", 
                "extension": [
                    {}
                ]
            }, 
            "type": "type as Text", 
            "_type": {
                "id": "85a1e56e-7d09-454f-a590-0e0cb0d377e0", 
                "extension": [
                    {}
                ]
            }, 
            "identifier": {
                "id": "85a1e56e-7d09-454f-a590-0e0cb0d377e0", 
                "extension": [
                    {}
                ], 
                "system": "system as Text", 
                "value": "value as Text"
            }, 
            "display": "display as Text", 
            "_display": {
                "id": "85a1e56e-7d09-454f-a590-0e0cb0d377e0", 
                "extension": [
                    {}
                ]
            }
        }
    }, 
    "status": "draft", 
    "_status": {
        "id": "85a1e56e-7d09-454f-a590-0e0cb0d377e0", 
        "extension": [
            "urn:ngsi-ld:Extension:001"
        ]
    }, 
    "intent": "plan", 
    "_intent": {
        "id": "85a1e56e-7d09-454f-a590-0e0cb0d377e0", 
        "extension": [
            "urn:ngsi-ld:Extension:001"
        ]
    }, 
    "priority": "routine", 
    "_priority": {
        "id": "85a1e56e-7d09-454f-a590-0e0cb0d377e0", 
        "extension": [
            "urn:ngsi-ld:Extension:001"
        ]
    }, 
    "code": {
        "id": "85a1e56e-7d09-454f-a590-0e0cb0d377e0", 
        "extension": [
            "urn:ngsi-ld:Extension:001"
        ], 
        "coding": [
            {
                "id": "85a1e56e-7d09-454f-a590-0e0cb0d377e0", 
                "extension": [
                    {}
                ], 
                "system": "system as Text", 
                "_system": {
                    "id": "85a1e56e-7d09-454f-a590-0e0cb0d377e0", 
                    "extension": [
                        {}
                    ]
                }, 
                "version": "version as Text", 
                "_version": {
                    "id": "85a1e56e-7d09-454f-a590-0e0cb0d377e0", 
                    "extension": [
                        {}
                    ]
                }, 
                "code": "code as Text", 
                "_code": {
                    "id": "85a1e56e-7d09-454f-a590-0e0cb0d377e0", 
                    "extension": [
                        {}
                    ]
                }, 
                "display": "display as Text", 
                "_display": {
                    "id": "85a1e56e-7d09-454f-a590-0e0cb0d377e0", 
                    "extension": [
                        {}
                    ]
                }, 
                "userSelected": false, 
                "_userSelected": {
                    "id": "85a1e56e-7d09-454f-a590-0e0cb0d377e0", 
                    "extension": [
                        {}
                    ]
                }
            }
        ], 
        "text": "text as Text", 
        "_text": {
            "id": "85a1e56e-7d09-454f-a590-0e0cb0d377e0", 
            "extension": [
                {}
            ]
        }
    }, 
    "subject": {
        "reference": "Patient/example"
    }, 
    "encounter": {
        "reference": "Encounter/example"
    }, 
    "authoredOn": "2017-03-06T17:31:00Z", 
    "_authoredOn": {
        "id": "85a1e56e-7d09-454f-a590-0e0cb0d377e0", 
        "extension": [
            "urn:ngsi-ld:Extension:001"
        ]
    }, 
    "author": {
        "reference": "Practitioner/1"
    }, 
    "reasonCode": [
        {
            "id": "85a1e56e-7d09-454f-a590-0e0cb0d377e0", 
            "extension": [
                "urn:ngsi-ld:Extension:001"
            ], 
            "coding": [
                {
                    "id": "85a1e56e-7d09-454f-a590-0e0cb0d377e0", 
                    "extension": [
                        {}
                    ], 
                    "system": "system as Text", 
                    "_system": {
                        "id": "85a1e56e-7d09-454f-a590-0e0cb0d377e0", 
                        "extension": [
                            {}
                        ]
                    }, 
                    "version": "version as Text", 
                    "_version": {
                        "id": "85a1e56e-7d09-454f-a590-0e0cb0d377e0", 
                        "extension": [
                            {}
                        ]
                    }, 
                    "code": "code as Text", 
                    "_code": {
                        "id": "85a1e56e-7d09-454f-a590-0e0cb0d377e0", 
                        "extension": [
                            {}
                        ]
                    }, 
                    "display": "display as Text", 
                    "_display": {
                        "id": "85a1e56e-7d09-454f-a590-0e0cb0d377e0", 
                        "extension": [
                            {}
                        ]
                    }, 
                    "userSelected": false, 
                    "_userSelected": {
                        "id": "85a1e56e-7d09-454f-a590-0e0cb0d377e0", 
                        "extension": [
                            {}
                        ]
                    }
                }
            ], 
            "text": "text as Text", 
            "_text": {
                "id": "85a1e56e-7d09-454f-a590-0e0cb0d377e0", 
                "extension": [
                    {}
                ]
            }
        }
    ], 
    "reasonReference": [
        {
            "id": "85a1e56e-7d09-454f-a590-0e0cb0d377e0", 
            "extension": [
                "urn:ngsi-ld:Extension:001"
            ], 
            "reference": "reference as Text", 
            "_reference": {
                "id": "85a1e56e-7d09-454f-a590-0e0cb0d377e0", 
                "extension": [
                    {}
                ]
            }, 
            "type": "type as Text", 
            "_type": {
                "id": "85a1e56e-7d09-454f-a590-0e0cb0d377e0", 
                "extension": [
                    {}
                ]
            }, 
            "identifier": {
                "id": "85a1e56e-7d09-454f-a590-0e0cb0d377e0", 
                "extension": [
                    {}
                ], 
                "_use": {
                    "id": "85a1e56e-7d09-454f-a590-0e0cb0d377e0", 
                    "extension": [
                        {}
                    ]
                }, 
                "type": {
                    "id": "85a1e56e-7d09-454f-a590-0e0cb0d377e0", 
                    "extension": [
                        {}
                    ], 
                    "text": "text as Text"
                }, 
                "system": "system as Text", 
                "_system": {
                    "id": "85a1e56e-7d09-454f-a590-0e0cb0d377e0", 
                    "extension": [
                        {}
                    ]
                }, 
                "value": "value as Text", 
                "_value": {
                    "id": "85a1e56e-7d09-454f-a590-0e0cb0d377e0", 
                    "extension": [
                        {}
                    ]
                }, 
                "period": {
                    "id": "85a1e56e-7d09-454f-a590-0e0cb0d377e0", 
                    "extension": [
                        {}
                    ], 
                    "start": "start as Text", 
                    "end": "end as Text"
                }, 
                "assigner": {
                    "id": "85a1e56e-7d09-454f-a590-0e0cb0d377e0", 
                    "extension": [
                        {}
                    ], 
                    "reference": "reference as Text", 
                    "type": "type as Text", 
                    "display": "display as Text"
                }
            }, 
            "display": "display as Text", 
            "_display": {
                "id": "85a1e56e-7d09-454f-a590-0e0cb0d377e0", 
                "extension": [
                    {}
                ]
            }
        }
    ], 
    "note": [
        {
            "id": "85a1e56e-7d09-454f-a590-0e0cb0d377e0", 
            "extension": [
                "urn:ngsi-ld:Extension:001"
            ], 
            "authorReference": {
                "id": "85a1e56e-7d09-454f-a590-0e0cb0d377e0", 
                "extension": [
                    {}
                ], 
                "reference": "reference as Text", 
                "_reference": {
                    "id": "85a1e56e-7d09-454f-a590-0e0cb0d377e0", 
                    "extension": [
                        {}
                    ]
                }, 
                "type": "type as Text", 
                "_type": {
                    "id": "85a1e56e-7d09-454f-a590-0e0cb0d377e0", 
                    "extension": [
                        {}
                    ]
                }, 
                "identifier": {
                    "id": "85a1e56e-7d09-454f-a590-0e0cb0d377e0", 
                    "extension": [
                        {}
                    ], 
                    "system": "system as Text", 
                    "value": "value as Text"
                }, 
                "display": "display as Text", 
                "_display": {
                    "id": "85a1e56e-7d09-454f-a590-0e0cb0d377e0", 
                    "extension": [
                        {}
                    ]
                }
            }, 
            "authorString": "authorString as Text", 
            "_authorString": {
                "id": "85a1e56e-7d09-454f-a590-0e0cb0d377e0", 
                "extension": [
                    {}
                ]
            }, 
            "time": "14:59:59Z", 
            "_time": {
                "id": "85a1e56e-7d09-454f-a590-0e0cb0d377e0", 
                "extension": [
                    {}
                ]
            }, 
            "text": "text as Text", 
            "_text": {
                "id": "85a1e56e-7d09-454f-a590-0e0cb0d377e0", 
                "extension": [
                    {}
                ]
            }
        }
    ], 
    "action": [
        {
            "selectionBehavior": "exactly-one", 
            "action": [
                {
                    "selectionBehavior": "all", 
                    "action": [
                        {
                            "groupingBehavior": "sentence-group", 
                            "selectionBehavior": "exactly-one", 
                            "action": [
                                {
                                    "id": "cycle-definition-1", 
                                    "textEquivalent": "21-day cycle for 6 cycles", 
                                    "timingTiming": {
                                        "repeat": {
                                            "count": 6, 
                                            "duration": 21, 
                                            "durationUnit": "d"
                                        }
                                    }, 
                                    "action": [
                                        {
                                            "id": "action-1", 
                                            "extension": [
                                                {
                                                    "url": "http://hl7.org/fhir/StructureDefinition/timing-daysOfCycle", 
                                                    "extension": [
                                                        {
                                                            "url": "day", 
                                                            "valueInteger": 1
                                                        }, 
                                                        {
                                                            "url": "day", 
                                                            "valueInteger": 8
                                                        }
                                                    ]
                                                }
                                            ], 
                                            "textEquivalent": "Gemcitabine 1250 mg/m\u00b2 IV over 30 minutes on days 1 and 8", 
                                            "resource": {
                                                "reference": "#1111"
                                            }
                                        }, 
                                        {
                                            "id": "action-2", 
                                            "extension": [
                                                {
                                                    "url": "http://hl7.org/fhir/StructureDefinition/timing-daysOfCycle", 
                                                    "extension": [
                                                        {
                                                            "url": "day", 
                                                            "valueInteger": 1
                                                        }
                                                    ]
                                                }
                                            ], 
                                            "textEquivalent": "CARBOplatin AUC 5 IV over 30 minutes on Day 1", 
                                            "relatedAction": [
                                                {
                                                    "actionId": "action-1", 
                                                    "relationship": "concurrent-with-start"
                                                }
                                            ], 
                                            "resource": {
                                                "reference": "#2222"
                                            }
                                        }
                                    ]
                                }
                            ]
                        }
                    ]
                }
            ]
        }
    ], 
    "id": "urn:ngsi-ld:RequestGroup:001", 
    "description": "an instance of RequestGroup"
}