{
    "resourceType": {
        "value": "QuestionnaireResponse", 
        "type": "Text"
    }, 
    "type": "QuestionnaireResponse", 
    "meta": [
        {
            "value": {
                "id": "85a1e56e-7d09-454f-a590-0e0cb0d377e0", 
                "extension": [
                    "urn:ngsi-ld:Extension:001"
                ], 
                "versionId": "This value changes when the resource is created, updated, or deleted.", 
                "_versionId": {
                    "id": "85a1e56e-7d09-454f-a590-0e0cb0d377e0", 
                    "extension": [
                        {}
                    ]
                }, 
                "lastUpdated": "2024-12-10", 
                "_lastUpdated": {
                    "id": "85a1e56e-7d09-454f-a590-0e0cb0d377e0", 
                    "extension": [
                        {}
                    ]
                }, 
                "source": "The source may identify another FHIR server, document, message, database, etc.", 
                "_source": {
                    "id": "85a1e56e-7d09-454f-a590-0e0cb0d377e0", 
                    "extension": [
                        {}
                    ]
                }, 
                "profile": [
                    "The URL is a reference to [[[StructureDefinition.url]]]."
                ], 
                "security": [
                    {
                        "id": "85a1e56e-7d09-454f-a590-0e0cb0d377e0", 
                        "extension": [
                            {}
                        ], 
                        "system": "The identification of the code system that defines the meaning of the symbol in the code.", 
                        "_system": {
                            "id": "85a1e56e-7d09-454f-a590-0e0cb0d377e0", 
                            "extension": [
                                {}
                            ]
                        }, 
                        "version": "However this cannot consistently be assured, and when the meaning is not guaranteed to be consistent, the version SHOULD be exchanged.", 
                        "_version": {
                            "id": "85a1e56e-7d09-454f-a590-0e0cb0d377e0", 
                            "extension": [
                                {}
                            ]
                        }, 
                        "code": "post-coordination).", 
                        "_code": {
                            "id": "85a1e56e-7d09-454f-a590-0e0cb0d377e0", 
                            "extension": [
                                {}
                            ]
                        }, 
                        "display": "A representation of the meaning of the code in the system, following the rules of the system.", 
                        "_display": {
                            "id": "85a1e56e-7d09-454f-a590-0e0cb0d377e0", 
                            "extension": [
                                {}
                            ]
                        }, 
                        "userSelected": false, 
                        "_userSelected": {
                            "id": "85a1e56e-7d09-454f-a590-0e0cb0d377e0", 
                            "extension": [
                                {}
                            ]
                        }
                    }
                ], 
                "tag": [
                    {
                        "id": "85a1e56e-7d09-454f-a590-0e0cb0d377e0", 
                        "extension": [
                            {}
                        ], 
                        "system": "The identification of the code system that defines the meaning of the symbol in the code.", 
                        "_system": {
                            "id": "85a1e56e-7d09-454f-a590-0e0cb0d377e0", 
                            "extension": [
                                {}
                            ]
                        }, 
                        "version": "However this cannot consistently be assured, and when the meaning is not guaranteed to be consistent, the version SHOULD be exchanged.", 
                        "_version": {
                            "id": "85a1e56e-7d09-454f-a590-0e0cb0d377e0", 
                            "extension": [
                                {}
                            ]
                        }, 
                        "code": "post-coordination).", 
                        "_code": {
                            "id": "85a1e56e-7d09-454f-a590-0e0cb0d377e0", 
                            "extension": [
                                {}
                            ]
                        }, 
                        "display": "A representation of the meaning of the code in the system, following the rules of the system.", 
                        "_display": {
                            "id": "85a1e56e-7d09-454f-a590-0e0cb0d377e0", 
                            "extension": [
                                {}
                            ]
                        }, 
                        "userSelected": false, 
                        "_userSelected": {
                            "id": "85a1e56e-7d09-454f-a590-0e0cb0d377e0", 
                            "extension": [
                                {}
                            ]
                        }
                    }
                ]
            }, 
            "type": "StructuredValue"
        }
    ], 
    "implicitRules": {
        "value": "String of characters used to identify a name or a resource", 
        "type": "Text"
    }, 
    "_implicitRules": [
        {
            "value": {
                "id": "85a1e56e-7d09-454f-a590-0e0cb0d377e0", 
                "extension": [
                    "urn:ngsi-ld:Extension:001"
                ]
            }, 
            "type": "StructuredValue"
        }
    ], 
    "language": {
        "value": "EN-US", 
        "type": "Text"
    }, 
    "_language": [
        {
            "value": {
                "id": "85a1e56e-7d09-454f-a590-0e0cb0d377e0", 
                "extension": [
                    "urn:ngsi-ld:Extension:001"
                ]
            }, 
            "type": "StructuredValue"
        }
    ], 
    "text": [
        {
            "value": {
                "status": "generated", 
                "div": "<div xmlns=\"http://www.w3.org/1999/xhtml\">\n      <pre>\n            Comorbidity? YES\n              Cardial Comorbidity? YES\n                Angina? YES\n                MI? NO\n              Vascular Comorbidity?\n                (no answers)\n              ...\n            Histopathology\n              Abdominal\n                pT category: 1a\n              ...\n          </pre>\n    </div>"
            }, 
            "type": "StructuredValue"
        }
    ], 
    "contained": [
        {
            "value": [
                {
                    "resourceType": "Patient", 
                    "id": "patsub", 
                    "identifier": [
                        {
                            "system": "http://cancer.questionnaire.org/systems/id/patientnr", 
                            "value": "A34442332"
                        }, 
                        {
                            "type": {
                                "text": "Dutch BSN"
                            }, 
                            "system": "urn:oid:2.16.840.1.113883.2.4.6.3", 
                            "value": "188912345"
                        }
                    ], 
                    "gender": "male", 
                    "birthDate": "1972-11-30"
                }, 
                {
                    "resourceType": "ServiceRequest", 
                    "id": "order", 
                    "status": "unknown", 
                    "intent": "order", 
                    "subject": {
                        "reference": "#patsub"
                    }, 
                    "requester": {
                        "reference": "Practitioner/example"
                    }
                }, 
                {
                    "resourceType": "Practitioner", 
                    "id": "questauth", 
                    "identifier": [
                        {
                            "type": {
                                "text": "AUMC, Den Helder"
                            }, 
                            "system": "http://cancer.questionnaire.org/systems/id/org", 
                            "value": "AUMC"
                        }
                    ]
                }
            ], 
            "type": "StructuredValue"
        }
    ], 
    "extension": [
        {
            "value": [
                "urn:ngsi-ld:Extension:001"
            ], 
            "type": "StructuredValue"
        }
    ], 
    "modifierExtension": [
        {
            "value": [
                "urn:ngsi-ld:Extension:modifier001"
            ], 
            "type": "StructuredValue"
        }
    ], 
    "identifier": [
        {
            "value": {
                "system": "http://example.org/fhir/NamingSystem/questionnaire-ids", 
                "value": "Q12349876"
            }, 
            "type": "StructuredValue"
        }
    ], 
    "basedOn": [
        {
            "value": [
                {
                    "reference": "#order"
                }
            ], 
            "type": "StructuredValue"
        }
    ], 
    "partOf": [
        {
            "value": [
                {
                    "reference": "Procedure/f201"
                }
            ], 
            "type": "StructuredValue"
        }
    ], 
    "questionnaire": {
        "value": "A URI that is a reference to a canonical URL on a FHIR resource", 
        "type": "Text"
    }, 
    "status": {
        "value": "completed", 
        "type": "Text"
    }, 
    "_status": [
        {
            "value": {
                "id": "85a1e56e-7d09-454f-a590-0e0cb0d377e0", 
                "extension": [
                    "urn:ngsi-ld:Extension:001"
                ]
            }, 
            "type": "StructuredValue"
        }
    ], 
    "subject": [
        {
            "value": {
                "reference": "#patsub"
            }, 
            "type": "StructuredValue"
        }
    ], 
    "encounter": [
        {
            "value": {
                "reference": "Encounter/example"
            }, 
            "type": "StructuredValue"
        }
    ], 
    "authored": {
        "value": "2013-02-19T14:15:00-05:00", 
        "type": "Text"
    }, 
    "_authored": [
        {
            "value": {
                "id": "85a1e56e-7d09-454f-a590-0e0cb0d377e0", 
                "extension": [
                    "urn:ngsi-ld:Extension:001"
                ]
            }, 
            "type": "StructuredValue"
        }
    ], 
    "author": [
        {
            "value": {
                "reference": "#questauth"
            }, 
            "type": "StructuredValue"
        }
    ], 
    "source": [
        {
            "value": {
                "id": "85a1e56e-7d09-454f-a590-0e0cb0d377e0", 
                "extension": [
                    "urn:ngsi-ld:Extension:001"
                ], 
                "reference": "Internal fragment references (start with '#') refer to contained resources.", 
                "_reference": {
                    "id": "85a1e56e-7d09-454f-a590-0e0cb0d377e0", 
                    "extension": [
                        {}
                    ]
                }, 
                "type": "Absolute URLs are only allowed for logical models (and can only be used in references in logical models, not resources).", 
                "_type": {
                    "id": "85a1e56e-7d09-454f-a590-0e0cb0d377e0", 
                    "extension": [
                        {}
                    ]
                }, 
                "identifier": {
                    "id": "85a1e56e-7d09-454f-a590-0e0cb0d377e0", 
                    "extension": [
                        {}
                    ], 
                    "_use": {
                        "id": "85a1e56e-7d09-454f-a590-0e0cb0d377e0", 
                        "extension": [
                            {}
                        ]
                    }, 
                    "type": {
                        "id": "85a1e56e-7d09-454f-a590-0e0cb0d377e0", 
                        "extension": [
                            {}
                        ], 
                        "text": "A human language representation of the concept as seen/selected/uttered by the user who entered the data and/or which represents the intended meaning of the user."
                    }, 
                    "system": "Establishes the namespace for the value - that is, a URL that describes a set values that are unique.", 
                    "_system": {
                        "id": "85a1e56e-7d09-454f-a590-0e0cb0d377e0", 
                        "extension": [
                            {}
                        ]
                    }, 
                    "value": "The portion of the identifier typically relevant to the user and which is unique within the context of the system.", 
                    "_value": {
                        "id": "85a1e56e-7d09-454f-a590-0e0cb0d377e0", 
                        "extension": [
                            {}
                        ]
                    }, 
                    "period": {
                        "id": "85a1e56e-7d09-454f-a590-0e0cb0d377e0", 
                        "extension": [
                            {}
                        ], 
                        "start": "The boundary is inclusive.", 
                        "end": "The start may be in the past, and the end date in the future, which means that period is expected/planned to end at that time."
                    }, 
                    "assigner": {
                        "id": "85a1e56e-7d09-454f-a590-0e0cb0d377e0", 
                        "extension": [
                            {}
                        ], 
                        "reference": "Internal fragment references (start with '#') refer to contained resources.", 
                        "type": "Absolute URLs are only allowed for logical models (and can only be used in references in logical models, not resources).", 
                        "display": "Plain text narrative that identifies the resource in addition to the resource reference."
                    }
                }, 
                "display": "Plain text narrative that identifies the resource in addition to the resource reference.", 
                "_display": {
                    "id": "85a1e56e-7d09-454f-a590-0e0cb0d377e0", 
                    "extension": [
                        {}
                    ]
                }
            }, 
            "type": "StructuredValue"
        }
    ], 
    "item": [
        {
            "value": [
                {
                    "linkId": "1", 
                    "item": [
                        {
                            "linkId": "1.1", 
                            "answer": [
                                {
                                    "valueCoding": {
                                        "system": "http://cancer.questionnaire.org/system/code/yesno", 
                                        "code": "1", 
                                        "display": "Yes"
                                    }, 
                                    "item": [
                                        {
                                            "linkId": "1.1.1", 
                                            "item": [
                                                {
                                                    "linkId": "1.1.1.1", 
                                                    "answer": [
                                                        {
                                                            "valueCoding": {
                                                                "system": "http://cancer.questionnaire.org/system/code/yesno", 
                                                                "code": "1"
                                                            }
                                                        }
                                                    ]
                                                }, 
                                                {
                                                    "linkId": "1.1.1.2", 
                                                    "answer": [
                                                        {
                                                            "valueCoding": {
                                                                "system": "http://cancer.questionnaire.org/system/code/yesno", 
                                                                "code": "1"
                                                            }
                                                        }
                                                    ]
                                                }, 
                                                {
                                                    "linkId": "1.1.1.3", 
                                                    "answer": [
                                                        {
                                                            "valueCoding": {
                                                                "system": "http://cancer.questionnaire.org/system/code/yesno", 
                                                                "code": "0"
                                                            }
                                                        }
                                                    ]
                                                }
                                            ]
                                        }
                                    ]
                                }
                            ]
                        }
                    ]
                }
            ], 
            "type": "StructuredValue"
        }
    ], 
    "id": "urn:ngsi-ld:QuestionnaireResponse:001", 
    "description": {
        "value": "an instance of QuestionnaireResponse", 
        "type": "Text"
    }
}